File: batch/data_set6.txt
"134340 - C:\Documents and Settings\User\My Documents\Homogeneous-catalysis\Allen, Lucy\lka1079.014.spc"
"Wavelength nm.","Abs."
200.00,0.58020
201.00,0.49182
202.00,0.64221
203.00,0.90344
204.00,0.79578
205.00,0.64490
206.00,0.60120
207.00,0.60083
208.00,0.51196
209.00,0.51172
210.00,0.53430
211.00,0.51111
212.00,0.57593
213.00,0.53064
214.00,0.48535
215.00,0.55176
216.00,0.53015
217.00,0.48132
218.00,0.42639
219.00,0.27502
220.00,0.24060
221.00,0.31934
222.00,0.43787
223.00,0.50085
224.00,0.50635
225.00,0.51282
226.00,0.51453
227.00,0.51477
228.00,0.51306
229.00,0.50659
230.00,0.49536
231.00,0.48010
232.00,0.46228
233.00,0.44226
234.00,0.42078
235.00,0.39856
236.00,0.37585
237.00,0.35413
238.00,0.33386
239.00,0.31482
240.00,0.29736
241.00,0.28162
242.00,0.26758
243.00,0.25464
244.00,0.24268
245.00,0.23108
246.00,0.21960
247.00,0.20886
248.00,0.19836
249.00,0.18787
250.00,0.17725
251.00,0.16675
252.00,0.15649
253.00,0.14697
254.00,0.13831
255.00,0.13000
256.00,0.12207
257.00,0.11499
258.00,0.10864
259.00,0.10315
260.00,0.09839
261.00,0.09399
262.00,0.09021
263.00,0.08691
264.00,0.08362
265.00,0.08057
266.00,0.07764
267.00,0.07495
268.00,0.07239
269.00,0.06958
270.00,0.06653
271.00,0.06335
272.00,0.06018
273.00,0.05688
274.00,0.05371
275.00,0.05029
276.00,0.04688
277.00,0.04346
278.00,0.04004
279.00,0.03687
280.00,0.03357
281.00,0.03040
282.00,0.02734
283.00,0.02441
284.00,0.02136
285.00,0.01855
286.00,0.01599
287.00,0.01367
288.00,0.01099
289.00,0.00854
290.00,0.00647
291.00,0.00439
292.00,0.00220
293.00,0.00024
294.00,-0.00159
295.00,-0.00330
296.00,-0.00500
297.00,-0.00671
298.00,-0.00146
299.00,0.02014
300.00,0.03796
301.00,0.03955
302.00,0.03821
303.00,0.03687
304.00,0.03528
305.00,0.03394
306.00,0.03284
307.00,0.03149
308.00,0.03027
309.00,0.02917
310.00,0.02795
311.00,0.02673
312.00,0.02563
313.00,0.02466
314.00,0.02380
315.00,0.02295
316.00,0.02197
317.00,0.02100
318.00,0.02039
319.00,0.01990
320.00,0.01941
321.00,0.01880
322.00,0.01843
323.00,0.01794
324.00,0.01746
325.00,0.01709
326.00,0.01672
327.00,0.01624
328.00,0.01599
329.00,0.01575
330.00,0.01526
331.00,0.01477
332.00,0.01465
333.00,0.01416
334.00,0.01367
335.00,0.01343
336.00,0.01306
337.00,0.01270
338.00,0.01233
339.00,0.01196
340.00,0.01147
341.00,0.01025
342.00,0.00916
343.00,0.00879
344.00,0.00842
345.00,0.00806
346.00,0.00769
347.00,0.00732
348.00,0.00696
349.00,0.00659
350.00,0.00623
351.00,0.00598
352.00,0.00549
353.00,0.00513
354.00,0.00488
355.00,0.00464
356.00,0.00427
357.00,0.00391
358.00,0.00366
359.00,0.00342
360.00,0.00330
361.00,0.00317
362.00,0.00293
363.00,0.00269
364.00,0.00256
365.00,0.00256
366.00,0.00244
367.00,0.00232
368.00,0.00220
369.00,0.00195
370.00,0.00183
371.00,0.00183
372.00,0.00171
373.00,0.00159
374.00,0.00146
375.00,0.00122
376.00,0.00110
377.00,0.00110
378.00,0.00098
379.00,0.00098
380.00,0.00085
381.00,0.00085
382.00,0.00073
383.00,0.00049
384.00,0.00037
385.00,0.00037
386.00,0.00037
387.00,0.00037
388.00,0.00012
389.00,0.00012
390.00,0.00012
391.00,0.00000
392.00,-0.00012
393.00,-0.00012
394.00,-0.00012
395.00,-0.00012
396.00,-0.00024
397.00,-0.00024
398.00,-0.00024
399.00,-0.00024
400.00,-0.00024
401.00,-0.00024
402.00,-0.00024
403.00,-0.00024
404.00,-0.00024
405.00,-0.00037
406.00,-0.00037
407.00,-0.00037
408.00,-0.00037
409.00,-0.00049
410.00,-0.00061
411.00,-0.00061
412.00,-0.00061
413.00,-0.00049
414.00,-0.00049
415.00,-0.00049
416.00,-0.00049
417.00,-0.00061
418.00,-0.00061
419.00,-0.00073
420.00,-0.00073
421.00,-0.00073
422.00,-0.00073
423.00,-0.00073
424.00,-0.00061
425.00,-0.00073
426.00,-0.00073
427.00,-0.00073
428.00,-0.00073
429.00,-0.00073
430.00,-0.00073
431.00,-0.00073
432.00,-0.00073
433.00,-0.00073
434.00,-0.00085
435.00,-0.00085
436.00,-0.00085
437.00,-0.00073
438.00,-0.00073
439.00,-0.00073
440.00,-0.00073
441.00,-0.00073
442.00,-0.00073
443.00,-0.00073
444.00,-0.00073
445.00,-0.00073
446.00,-0.00073
447.00,-0.00073
448.00,-0.00073
449.00,-0.00073
450.00,-0.00073
451.00,-0.00073
452.00,-0.00073
453.00,-0.00073
454.00,-0.00073
455.00,-0.00061
456.00,-0.00061
457.00,-0.00061
458.00,-0.00061
459.00,-0.00061
460.00,-0.00061
461.00,-0.00061
462.00,-0.00061
463.00,-0.00061
464.00,-0.00061
465.00,-0.00061
466.00,-0.00061
467.00,-0.00061
468.00,-0.00061
469.00,-0.00061
470.00,-0.00073
471.00,-0.00073
472.00,-0.00073
473.00,-0.00073
474.00,-0.00073
475.00,-0.00073
476.00,-0.00073
477.00,-0.00073
478.00,-0.00061
479.00,-0.00061
480.00,-0.00073
481.00,-0.00073
482.00,-0.00073
483.00,-0.00073
484.00,-0.00085
485.00,-0.00085
486.00,-0.00085
487.00,-0.00085
488.00,-0.00085
489.00,-0.00085
490.00,-0.00085
491.00,-0.00085
492.00,-0.00085
493.00,-0.00085
494.00,-0.00085
495.00,-0.00085
496.00,-0.00085
497.00,-0.00085
498.00,-0.00085
499.00,-0.00073
500.00,-0.00073
501.00,-0.00073
502.00,-0.00073
503.00,-0.00061
504.00,-0.00073
505.00,-0.00073
506.00,-0.00073
507.00,-0.00073
508.00,-0.00073
509.00,-0.00073
510.00,-0.00073
511.00,-0.00073
512.00,-0.00061
513.00,-0.00061
514.00,-0.00061
515.00,-0.00049
516.00,-0.00037
517.00,-0.00024
518.00,-0.00012
519.00,-0.00012
520.00,0.00012
521.00,0.00049
522.00,0.00073
523.00,0.00085
524.00,0.00098
525.00,0.00110
526.00,0.00110
527.00,0.00122
528.00,0.00122
529.00,0.00122
530.00,0.00134
531.00,0.00134
532.00,0.00134
533.00,0.00146
534.00,0.00146
535.00,0.00146
536.00,0.00159
537.00,0.00171
538.00,0.00171
539.00,0.00183
540.00,0.00183
541.00,0.00183
542.00,0.00195
543.00,0.00195
544.00,0.00195
545.00,0.00195
546.00,0.00195
547.00,0.00195
548.00,0.00195
549.00,0.00208
550.00,0.00208
551.00,0.00220
552.00,0.00232
553.00,0.00232
554.00,0.00244
555.00,0.00244
556.00,0.00244
557.00,0.00256
558.00,0.00256
559.00,0.00281
560.00,0.00317
561.00,0.00342
562.00,0.00366
563.00,0.00403
564.00,0.00452
565.00,0.00488
566.00,0.00525
567.00,0.00586
568.00,0.00635
569.00,0.00696
570.00,0.00757
571.00,0.00806
572.00,0.00879
573.00,0.00952
574.00,0.01013
575.00,0.01086
576.00,0.01160
577.00,0.01233
578.00,0.01306
579.00,0.01379
580.00,0.01453
581.00,0.01526
582.00,0.01611
583.00,0.01685
584.00,0.01758
585.00,0.01831
586.00,0.01892
587.00,0.01965
588.00,0.02026
589.00,0.02087
590.00,0.02136
591.00,0.02173
592.00,0.02209
593.00,0.02234
594.00,0.02271
595.00,0.02283
596.00,0.02307
597.00,0.02319
598.00,0.02332
599.00,0.02356
600.00,0.02380
601.00,0.02405
602.00,0.02441
603.00,0.02478
604.00,0.02515
605.00,0.02551
606.00,0.02600
607.00,0.02649
608.00,0.02710
609.00,0.02759
610.00,0.02820
611.00,0.02881
612.00,0.02954
613.00,0.03015
614.00,0.03076
615.00,0.03149
616.00,0.03210
617.00,0.03271
618.00,0.03333
619.00,0.03406
620.00,0.03467
621.00,0.03528
622.00,0.03564
623.00,0.03613
624.00,0.03638
625.00,0.03650
626.00,0.03674
627.00,0.03699
628.00,0.03699
629.00,0.03687
630.00,0.03674
631.00,0.03650
632.00,0.03613
633.00,0.03577
634.00,0.03540
635.00,0.03516
636.00,0.03491
637.00,0.03467
638.00,0.03442
639.00,0.03418
640.00,0.03381
641.00,0.03357
642.00,0.03320
643.00,0.03296
644.00,0.03271
645.00,0.03235
646.00,0.03198
647.00,0.03162
648.00,0.03137
649.00,0.03101
650.00,0.03076
651.00,0.03052
652.00,0.03027
653.00,0.03003
654.00,0.03003
655.00,0.03003
656.00,0.02991
657.00,0.02991
658.00,0.02979
659.00,0.02979
660.00,0.02979
661.00,0.02954
662.00,0.02930
663.00,0.02917
664.00,0.02893
665.00,0.02832
666.00,0.02771
667.00,0.02698
668.00,0.02625
669.00,0.02539
670.00,0.02441
671.00,0.02332
672.00,0.02197
673.00,0.02051
674.00,0.01917
675.00,0.01770
676.00,0.01624
677.00,0.01489
678.00,0.01355
679.00,0.01208
680.00,0.01062
681.00,0.00916
682.00,0.00793
683.00,0.00684
684.00,0.00586
685.00,0.00476
686.00,0.00378
687.00,0.00305
688.00,0.00232
689.00,0.00159
690.00,0.00098
691.00,0.00024
692.00,-0.00037
693.00,-0.00085
694.00,-0.00134
695.00,-0.00171
696.00,-0.00208
697.00,-0.00244
698.00,-0.00281
699.00,-0.00317
700.00,-0.00354
701.00,-0.00378
702.00,-0.00415
703.00,-0.00439
704.00,-0.00452
705.00,-0.00464
706.00,-0.00476
707.00,-0.00488
708.00,-0.00513
709.00,-0.00525
710.00,-0.00525
711.00,-0.00525
712.00,-0.00537
713.00,-0.00549
714.00,-0.00549
715.00,-0.00549
716.00,-0.00549
717.00,-0.00562
718.00,-0.00574
719.00,-0.00574
720.00,-0.00586
721.00,-0.00586
722.00,-0.00586
723.00,-0.00586
724.00,-0.00586
725.00,-0.00586
726.00,-0.00586
727.00,-0.00586
728.00,-0.00586
729.00,-0.00586
730.00,-0.00574
731.00,-0.00574
732.00,-0.00574
733.00,-0.00574
734.00,-0.00562
735.00,-0.00549
736.00,-0.00549
737.00,-0.00549
738.00,-0.00537
739.00,-0.00537
740.00,-0.00537
741.00,-0.00537
742.00,-0.00537
743.00,-0.00537
744.00,-0.00525
745.00,-0.00525
746.00,-0.00525
747.00,-0.00525
748.00,-0.00525
749.00,-0.00525
750.00,-0.00525
751.00,-0.00525
752.00,-0.00525
753.00,-0.00525
754.00,-0.00525
755.00,-0.00525
756.00,-0.00513
757.00,-0.00513
758.00,-0.00513
759.00,-0.00513
760.00,-0.00513
761.00,-0.00513
762.00,-0.00500
763.00,-0.00500
764.00,-0.00500
765.00,-0.00500
766.00,-0.00500
767.00,-0.00500
768.00,-0.00500
769.00,-0.00500
770.00,-0.00500
771.00,-0.00500
772.00,-0.00500
773.00,-0.00500
774.00,-0.00500
775.00,-0.00500
776.00,-0.00500
777.00,-0.00500
778.00,-0.00500
779.00,-0.00500
780.00,-0.00500
781.00,-0.00500
782.00,-0.00488
783.00,-0.00476
784.00,-0.00476
785.00,-0.00476
786.00,-0.00476
787.00,-0.00476
788.00,-0.00476
789.00,-0.00476
790.00,-0.00476
791.00,-0.00476
792.00,-0.00464
793.00,-0.00464
794.00,-0.00464
795.00,-0.00464
796.00,-0.00464
797.00,-0.00464
798.00,-0.00464
799.00,-0.00464
800.00,-0.00464
801.00,-0.00464
802.00,-0.00464
803.00,-0.00464
804.00,-0.00464
805.00,-0.00464
806.00,-0.00464
807.00,-0.00464
808.00,-0.00464
809.00,-0.00464
810.00,-0.00464
811.00,-0.00464
812.00,-0.00464
813.00,-0.00464
814.00,-0.00464
815.00,-0.00464
816.00,-0.00464
817.00,-0.00464
818.00,-0.00464
819.00,-0.00464
820.00,-0.00452
821.00,-0.00452
822.00,-0.00452
823.00,-0.00452
824.00,-0.00452
825.00,-0.00452
826.00,-0.00452
827.00,-0.00452
828.00,-0.00452
829.00,-0.00439
830.00,-0.00439
831.00,-0.00439
832.00,-0.00439
833.00,-0.00439
834.00,-0.00439
835.00,-0.00439
836.00,-0.00427
837.00,-0.00427
838.00,-0.00427
839.00,-0.00427
840.00,-0.00427
841.00,-0.00427
842.00,-0.00427
843.00,-0.00415
844.00,-0.00415
845.00,-0.00427
846.00,-0.00415
847.00,-0.00403
848.00,-0.00391
849.00,-0.00415
850.00,-0.00403
851.00,-0.00366
852.00,-0.00378
853.00,-0.00391
854.00,-0.00366
855.00,-0.00378
856.00,-0.00378
857.00,-0.00366
858.00,-0.00366
859.00,-0.00354
860.00,-0.00354
861.00,-0.00354
862.00,-0.00342
863.00,-0.00330
864.00,-0.00330
865.00,-0.00317
866.00,-0.00317
867.00,-0.00317
868.00,-0.00305
869.00,-0.00293
870.00,-0.00293
871.00,-0.00293
872.00,-0.00293
873.00,-0.00281
874.00,-0.00281
875.00,-0.00269
876.00,-0.00256
877.00,-0.00244
878.00,-0.00256
879.00,-0.00256
880.00,-0.00244
881.00,-0.00244
882.00,-0.00244
883.00,-0.00244
884.00,-0.00244
885.00,-0.00244
886.00,-0.00244
887.00,-0.00244
888.00,-0.00244
889.00,-0.00244
890.00,-0.00244
891.00,-0.00244
892.00,-0.00244
893.00,-0.00232
894.00,-0.00232
895.00,-0.00220
896.00,-0.00220
897.00,-0.00220
898.00,-0.00220
899.00,-0.00220
900.00,-0.00220