File: docs/batch/data_set1.txt
"105005 - C:\Documents and Settings\User\My Documents\Homogeneous-catalysis\Allen, Lucy\lka1079.004.spc"
"Wavelength nm.","Abs."
200.00,0.05225
201.00,0.05212
202.00,0.05859
203.00,0.11316
204.00,0.10620
205.00,0.03223
206.00,-0.03015
207.00,-0.03064
208.00,0.01221
209.00,-0.00854
210.00,0.04553
211.00,0.04504
212.00,0.00854
213.00,0.02832
214.00,0.00891
215.00,-0.01624
216.00,-0.01697
217.00,0.00671
218.00,-0.02124
219.00,-0.03821
220.00,-0.01563
221.00,0.08032
222.00,0.29468
223.00,0.56409
224.00,0.80615
225.00,0.94507
226.00,1.00134
227.00,1.02161
228.00,1.01221
229.00,0.99194
230.00,0.96423
231.00,0.93140
232.00,0.89783
233.00,0.86145
234.00,0.82397
235.00,0.78503
236.00,0.74487
237.00,0.70618
238.00,0.66968
239.00,0.63538
240.00,0.60425
241.00,0.57629
242.00,0.55054
243.00,0.52612
244.00,0.50317
245.00,0.48047
246.00,0.45776
247.00,0.43604
248.00,0.41382
249.00,0.39148
250.00,0.36963
251.00,0.34814
252.00,0.32739
253.00,0.30750
254.00,0.28943
255.00,0.27222
256.00,0.25562
257.00,0.24097
258.00,0.22778
259.00,0.21606
260.00,0.20544
261.00,0.19604
262.00,0.18762
263.00,0.18005
264.00,0.17322
265.00,0.16675
266.00,0.16064
267.00,0.15454
268.00,0.14856
269.00,0.14233
270.00,0.13586
271.00,0.12952
272.00,0.12317
273.00,0.11670
274.00,0.11035
275.00,0.10400
276.00,0.09790
277.00,0.09204
278.00,0.08643
279.00,0.08105
280.00,0.07593
281.00,0.07117
282.00,0.06689
283.00,0.06311
284.00,0.05933
285.00,0.05603
286.00,0.05322
287.00,0.05029
288.00,0.04749
289.00,0.04504
290.00,0.04297
291.00,0.04089
292.00,0.03870
293.00,0.03674
294.00,0.03479
295.00,0.03284
296.00,0.03076
297.00,0.02869
298.00,0.03345
299.00,0.05457
300.00,0.07190
301.00,0.07275
302.00,0.07043
303.00,0.06824
304.00,0.06592
305.00,0.06360
306.00,0.06104
307.00,0.05859
308.00,0.05627
309.00,0.05408
310.00,0.05188
311.00,0.04968
312.00,0.04749
313.00,0.04553
314.00,0.04382
315.00,0.04211
316.00,0.04028
317.00,0.03870
318.00,0.03748
319.00,0.03625
320.00,0.03503
321.00,0.03406
322.00,0.03333
323.00,0.03247
324.00,0.03174
325.00,0.03101
326.00,0.03027
327.00,0.02966
328.00,0.02917
329.00,0.02869
330.00,0.02795
331.00,0.02734
332.00,0.02673
333.00,0.02612
334.00,0.02551
335.00,0.02490
336.00,0.02441
337.00,0.02368
338.00,0.02307
339.00,0.02222
340.00,0.02148
341.00,0.02075
342.00,0.02002
343.00,0.01929
344.00,0.01855
345.00,0.01782
346.00,0.01709
347.00,0.01648
348.00,0.01575
349.00,0.01501
350.00,0.01440
351.00,0.01379
352.00,0.01318
353.00,0.01257
354.00,0.01208
355.00,0.01147
356.00,0.01099
357.00,0.01050
358.00,0.01013
359.00,0.00977
360.00,0.00940
361.00,0.00916
362.00,0.00891
363.00,0.00854
364.00,0.00830
365.00,0.00830
366.00,0.00818
367.00,0.00793
368.00,0.00781
369.00,0.00769
370.00,0.00769
371.00,0.00757
372.00,0.00757
373.00,0.00757
374.00,0.00745
375.00,0.00745
376.00,0.00745
377.00,0.00745
378.00,0.00720
379.00,0.00708
380.00,0.00708
381.00,0.00708
382.00,0.00708
383.00,0.00696
384.00,0.00696
385.00,0.00696
386.00,0.00696
387.00,0.00696
388.00,0.00696
389.00,0.00696
390.00,0.00696
391.00,0.00696
392.00,0.00696
393.00,0.00696
394.00,0.00696
395.00,0.00696
396.00,0.00696
397.00,0.00696
398.00,0.00696
399.00,0.00696
400.00,0.00696
401.00,0.00696
402.00,0.00696
403.00,0.00696
404.00,0.00696
405.00,0.00696
406.00,0.00696
407.00,0.00696
408.00,0.00696
409.00,0.00696
410.00,0.00696
411.00,0.00696
412.00,0.00696
413.00,0.00708
414.00,0.00708
415.00,0.00720
416.00,0.00720
417.00,0.00708
418.00,0.00708
419.00,0.00708
420.00,0.00720
421.00,0.00732
422.00,0.00720
423.00,0.00708
424.00,0.00720
425.00,0.00720
426.00,0.00708
427.00,0.00708
428.00,0.00708
429.00,0.00708
430.00,0.00708
431.00,0.00708
432.00,0.00708
433.00,0.00720
434.00,0.00732
435.00,0.00720
436.00,0.00720
437.00,0.00732
438.00,0.00732
439.00,0.00732
440.00,0.00732
441.00,0.00732
442.00,0.00732
443.00,0.00732
444.00,0.00745
445.00,0.00745
446.00,0.00745
447.00,0.00745
448.00,0.00745
449.00,0.00745
450.00,0.00745
451.00,0.00745
452.00,0.00745
453.00,0.00745
454.00,0.00745
455.00,0.00745
456.00,0.00745
457.00,0.00745
458.00,0.00757
459.00,0.00757
460.00,0.00757
461.00,0.00757
462.00,0.00757
463.00,0.00769
464.00,0.00769
465.00,0.00769
466.00,0.00769
467.00,0.00769
468.00,0.00769
469.00,0.00781
470.00,0.00781
471.00,0.00793
472.00,0.00806
473.00,0.00806
474.00,0.00806
475.00,0.00806
476.00,0.00818
477.00,0.00818
478.00,0.00830
479.00,0.00830
480.00,0.00830
481.00,0.00830
482.00,0.00830
483.00,0.00830
484.00,0.00830
485.00,0.00830
486.00,0.00830
487.00,0.00830
488.00,0.00830
489.00,0.00830
490.00,0.00830
491.00,0.00830
492.00,0.00830
493.00,0.00830
494.00,0.00842
495.00,0.00842
496.00,0.00842
497.00,0.00842
498.00,0.00854
499.00,0.00879
500.00,0.00879
501.00,0.00891
502.00,0.00903
503.00,0.00916
504.00,0.00928
505.00,0.00928
506.00,0.00940
507.00,0.00952
508.00,0.00964
509.00,0.00964
510.00,0.00977
511.00,0.00977
512.00,0.01001
513.00,0.01025
514.00,0.01038
515.00,0.01062
516.00,0.01086
517.00,0.01111
518.00,0.01147
519.00,0.01184
520.00,0.01221
521.00,0.01270
522.00,0.01318
523.00,0.01367
524.00,0.01404
525.00,0.01440
526.00,0.01477
527.00,0.01501
528.00,0.01526
529.00,0.01538
530.00,0.01563
531.00,0.01587
532.00,0.01599
533.00,0.01611
534.00,0.01624
535.00,0.01648
536.00,0.01685
537.00,0.01709
538.00,0.01733
539.00,0.01770
540.00,0.01782
541.00,0.01807
542.00,0.01831
543.00,0.01855
544.00,0.01880
545.00,0.01892
546.00,0.01904
547.00,0.01929
548.00,0.01953
549.00,0.01978
550.00,0.01990
551.00,0.02014
552.00,0.02051
553.00,0.02063
554.00,0.02087
555.00,0.02124
556.00,0.02148
557.00,0.02185
558.00,0.02234
559.00,0.02283
560.00,0.02356
561.00,0.02441
562.00,0.02527
563.00,0.02612
564.00,0.02722
565.00,0.02844
566.00,0.02954
567.00,0.03076
568.00,0.03223
569.00,0.03369
570.00,0.03516
571.00,0.03674
572.00,0.03833
573.00,0.03992
574.00,0.04150
575.00,0.04333
576.00,0.04504
577.00,0.04688
578.00,0.04871
579.00,0.05054
580.00,0.05249
581.00,0.05432
582.00,0.05615
583.00,0.05798
584.00,0.05969
585.00,0.06152
586.00,0.06311
587.00,0.06482
588.00,0.06653
589.00,0.06787
590.00,0.06909
591.00,0.07007
592.00,0.07104
593.00,0.07190
594.00,0.07251
595.00,0.07300
596.00,0.07349
597.00,0.07385
598.00,0.07434
599.00,0.07483
600.00,0.07520
601.00,0.07581
602.00,0.07654
603.00,0.07727
604.00,0.07825
605.00,0.07922
606.00,0.08044
607.00,0.08167
608.00,0.08289
609.00,0.08411
610.00,0.08569
611.00,0.08728
612.00,0.08875
613.00,0.09045
614.00,0.09204
615.00,0.09363
616.00,0.09521
617.00,0.09668
618.00,0.09827
619.00,0.09973
620.00,0.10120
621.00,0.10266
622.00,0.10400
623.00,0.10510
624.00,0.10583
625.00,0.10657
626.00,0.10718
627.00,0.10742
628.00,0.10754
629.00,0.10754
630.00,0.10730
631.00,0.10681
632.00,0.10632
633.00,0.10571
634.00,0.10510
635.00,0.10437
636.00,0.10376
637.00,0.10315
638.00,0.10242
639.00,0.10193
640.00,0.10132
641.00,0.10059
642.00,0.09998
643.00,0.09924
644.00,0.09863
645.00,0.09778
646.00,0.09692
647.00,0.09607
648.00,0.09521
649.00,0.09436
650.00,0.09363
651.00,0.09290
652.00,0.09229
653.00,0.09192
654.00,0.09155
655.00,0.09131
656.00,0.09119
657.00,0.09106
658.00,0.09082
659.00,0.09070
660.00,0.09058
661.00,0.09021
662.00,0.08972
663.00,0.08911
664.00,0.08826
665.00,0.08691
666.00,0.08557
667.00,0.08398
668.00,0.08203
669.00,0.07983
670.00,0.07739
671.00,0.07458
672.00,0.07166
673.00,0.06848
674.00,0.06506
675.00,0.06165
676.00,0.05823
677.00,0.05481
678.00,0.05164
679.00,0.04834
680.00,0.04517
681.00,0.04211
682.00,0.03906
683.00,0.03662
684.00,0.03418
685.00,0.03186
686.00,0.02966
687.00,0.02783
688.00,0.02600
689.00,0.02441
690.00,0.02295
691.00,0.02148
692.00,0.02002
693.00,0.01880
694.00,0.01770
695.00,0.01660
696.00,0.01587
697.00,0.01501
698.00,0.01428
699.00,0.01355
700.00,0.01282
701.00,0.01208
702.00,0.01160
703.00,0.01111
704.00,0.01074
705.00,0.01025
706.00,0.00989
707.00,0.00964
708.00,0.00928
709.00,0.00891
710.00,0.00879
711.00,0.00867
712.00,0.00842
713.00,0.00818
714.00,0.00818
715.00,0.00806
716.00,0.00793
717.00,0.00781
718.00,0.00769
719.00,0.00769
720.00,0.00757
721.00,0.00757
722.00,0.00757
723.00,0.00745
724.00,0.00745
725.00,0.00745
726.00,0.00745
727.00,0.00745
728.00,0.00745
729.00,0.00745
730.00,0.00745
731.00,0.00745
732.00,0.00732
733.00,0.00732
734.00,0.00732
735.00,0.00732
736.00,0.00732
737.00,0.00732
738.00,0.00732
739.00,0.00732
740.00,0.00732
741.00,0.00732
742.00,0.00732
743.00,0.00732
744.00,0.00732
745.00,0.00732
746.00,0.00745
747.00,0.00745
748.00,0.00745
749.00,0.00745
750.00,0.00745
751.00,0.00745
752.00,0.00745
753.00,0.00745
754.00,0.00745
755.00,0.00745
756.00,0.00745
757.00,0.00745
758.00,0.00745
759.00,0.00745
760.00,0.00745
761.00,0.00757
762.00,0.00757
763.00,0.00757
764.00,0.00757
765.00,0.00757
766.00,0.00757
767.00,0.00757
768.00,0.00757
769.00,0.00757
770.00,0.00769
771.00,0.00769
772.00,0.00769
773.00,0.00769
774.00,0.00769
775.00,0.00769
776.00,0.00769
777.00,0.00781
778.00,0.00781
779.00,0.00793
780.00,0.00806
781.00,0.00806
782.00,0.00806
783.00,0.00818
784.00,0.00818
785.00,0.00818
786.00,0.00818
787.00,0.00818
788.00,0.00830
789.00,0.00830
790.00,0.00830
791.00,0.00830
792.00,0.00842
793.00,0.00842
794.00,0.00842
795.00,0.00842
796.00,0.00842
797.00,0.00854
798.00,0.00867
799.00,0.00879
800.00,0.00879
801.00,0.00879
802.00,0.00879
803.00,0.00879
804.00,0.00879
805.00,0.00879
806.00,0.00891
807.00,0.00891
808.00,0.00891
809.00,0.00891
810.00,0.00891
811.00,0.00891
812.00,0.00891
813.00,0.00891
814.00,0.00891
815.00,0.00903
816.00,0.00903
817.00,0.00903
818.00,0.00903
819.00,0.00916
820.00,0.00928
821.00,0.00928
822.00,0.00940
823.00,0.00952
824.00,0.00952
825.00,0.00952
826.00,0.00964
827.00,0.00977
828.00,0.00977
829.00,0.00977
830.00,0.00989
831.00,0.00989
832.00,0.01001
833.00,0.01001
834.00,0.01013
835.00,0.01025
836.00,0.01038
837.00,0.01038
838.00,0.01050
839.00,0.01050
840.00,0.01050
841.00,0.01062
842.00,0.01062
843.00,0.01062
844.00,0.01086
845.00,0.01099
846.00,0.01099
847.00,0.01111
848.00,0.01111
849.00,0.01111
850.00,0.01123
851.00,0.01160
852.00,0.01147
853.00,0.01147
854.00,0.01172
855.00,0.01172
856.00,0.01184
857.00,0.01184
858.00,0.01196
859.00,0.01208
860.00,0.01208
861.00,0.01221
862.00,0.01233
863.00,0.01245
864.00,0.01257
865.00,0.01270
866.00,0.01270
867.00,0.01270
868.00,0.01282
869.00,0.01306
870.00,0.01318
871.00,0.01331
872.00,0.01331
873.00,0.01343
874.00,0.01355
875.00,0.01367
876.00,0.01379
877.00,0.01392
878.00,0.01404
879.00,0.01404
880.00,0.01416
881.00,0.01416
882.00,0.01428
883.00,0.01440
884.00,0.01453
885.00,0.01453
886.00,0.01453
887.00,0.01465
888.00,0.01465
889.00,0.01465
890.00,0.01465
891.00,0.01477
892.00,0.01477
893.00,0.01489
894.00,0.01514
895.00,0.01526
896.00,0.01526
897.00,0.01526
898.00,0.01526
899.00,0.01538
900.00,0.01550