File: docs/batch/data_set4.txt
"130801 - C:\Documents and Settings\User\My Documents\Homogeneous-catalysis\Allen, Lucy\lka1079.010.spc"
"Wavelength nm.","Abs."
200.00,0.36560
201.00,0.33606
202.00,0.26721
203.00,0.22754
204.00,0.24792
205.00,0.26831
206.00,0.26794
207.00,0.26746
208.00,0.26709
209.00,0.26660
210.00,0.31409
211.00,0.36169
212.00,0.31311
213.00,0.29187
214.00,0.27051
215.00,0.24231
216.00,0.28088
217.00,0.25940
218.00,0.14807
219.00,0.09106
220.00,0.13831
221.00,0.28955
222.00,0.50208
223.00,0.72241
224.00,0.88757
225.00,0.93225
226.00,0.93872
227.00,0.93555
228.00,0.92297
229.00,0.90369
230.00,0.87854
231.00,0.84875
232.00,0.81763
233.00,0.78308
234.00,0.74670
235.00,0.70935
236.00,0.67078
237.00,0.63452
238.00,0.59998
239.00,0.56787
240.00,0.53882
241.00,0.51245
242.00,0.48889
243.00,0.46680
244.00,0.44666
245.00,0.42725
246.00,0.40747
247.00,0.38794
248.00,0.36816
249.00,0.34839
250.00,0.32861
251.00,0.30908
252.00,0.29053
253.00,0.27319
254.00,0.25720
255.00,0.24219
256.00,0.22791
257.00,0.21521
258.00,0.20374
259.00,0.19373
260.00,0.18494
261.00,0.17737
262.00,0.17065
263.00,0.16455
264.00,0.15881
265.00,0.15356
266.00,0.14880
267.00,0.14441
268.00,0.13989
269.00,0.13489
270.00,0.12952
271.00,0.12390
272.00,0.11816
273.00,0.11243
274.00,0.10657
275.00,0.10046
276.00,0.09473
277.00,0.08911
278.00,0.08374
279.00,0.07861
280.00,0.07349
281.00,0.06873
282.00,0.06409
283.00,0.05994
284.00,0.05603
285.00,0.05225
286.00,0.04871
287.00,0.04517
288.00,0.04175
289.00,0.03870
290.00,0.03589
291.00,0.03308
292.00,0.03052
293.00,0.02820
294.00,0.02576
295.00,0.02344
296.00,0.02100
297.00,0.01868
298.00,0.02332
299.00,0.04431
300.00,0.06140
301.00,0.06213
302.00,0.05981
303.00,0.05774
304.00,0.05554
305.00,0.05347
306.00,0.05164
307.00,0.04980
308.00,0.04773
309.00,0.04578
310.00,0.04382
311.00,0.04175
312.00,0.03979
313.00,0.03796
314.00,0.03650
315.00,0.03491
316.00,0.03333
317.00,0.03198
318.00,0.03088
319.00,0.02991
320.00,0.02893
321.00,0.02808
322.00,0.02734
323.00,0.02661
324.00,0.02600
325.00,0.02539
326.00,0.02490
327.00,0.02429
328.00,0.02380
329.00,0.02319
330.00,0.02271
331.00,0.02222
332.00,0.02161
333.00,0.02112
334.00,0.02051
335.00,0.01990
336.00,0.01929
337.00,0.01880
338.00,0.01819
339.00,0.01746
340.00,0.01672
341.00,0.01550
342.00,0.01440
343.00,0.01367
344.00,0.01306
345.00,0.01233
346.00,0.01160
347.00,0.01086
348.00,0.01025
349.00,0.00977
350.00,0.00916
351.00,0.00842
352.00,0.00769
353.00,0.00708
354.00,0.00647
355.00,0.00598
356.00,0.00549
357.00,0.00513
358.00,0.00464
359.00,0.00427
360.00,0.00391
361.00,0.00354
362.00,0.00330
363.00,0.00305
364.00,0.00281
365.00,0.00269
366.00,0.00256
367.00,0.00244
368.00,0.00232
369.00,0.00220
370.00,0.00195
371.00,0.00183
372.00,0.00171
373.00,0.00171
374.00,0.00171
375.00,0.00146
376.00,0.00122
377.00,0.00122
378.00,0.00122
379.00,0.00110
380.00,0.00098
381.00,0.00098
382.00,0.00098
383.00,0.00085
384.00,0.00085
385.00,0.00073
386.00,0.00061
387.00,0.00061
388.00,0.00049
389.00,0.00049
390.00,0.00049
391.00,0.00049
392.00,0.00049
393.00,0.00049
394.00,0.00049
395.00,0.00037
396.00,0.00037
397.00,0.00037
398.00,0.00037
399.00,0.00037
400.00,0.00037
401.00,0.00037
402.00,0.00037
403.00,0.00037
404.00,0.00037
405.00,0.00037
406.00,0.00024
407.00,0.00024
408.00,0.00024
409.00,0.00012
410.00,0.00012
411.00,0.00024
412.00,0.00024
413.00,0.00024
414.00,0.00024
415.00,0.00037
416.00,0.00049
417.00,0.00012
418.00,0.00012
419.00,0.00012
420.00,0.00000
421.00,0.00012
422.00,0.00012
423.00,0.00012
424.00,0.00012
425.00,0.00000
426.00,0.00000
427.00,0.00000
428.00,0.00000
429.00,0.00000
430.00,0.00000
431.00,0.00000
432.00,0.00000
433.00,0.00000
434.00,0.00000
435.00,0.00000
436.00,0.00000
437.00,0.00000
438.00,-0.00012
439.00,-0.00012
440.00,0.00000
441.00,0.00000
442.00,-0.00012
443.00,-0.00012
444.00,0.00000
445.00,0.00000
446.00,0.00000
447.00,0.00000
448.00,0.00000
449.00,0.00012
450.00,0.00012
451.00,0.00000
452.00,0.00000
453.00,0.00000
454.00,0.00000
455.00,0.00012
456.00,0.00024
457.00,0.00024
458.00,0.00037
459.00,0.00037
460.00,0.00037
461.00,0.00037
462.00,0.00037
463.00,0.00037
464.00,0.00037
465.00,0.00037
466.00,0.00037
467.00,0.00037
468.00,0.00037
469.00,0.00037
470.00,0.00037
471.00,0.00037
472.00,0.00037
473.00,0.00037
474.00,0.00037
475.00,0.00037
476.00,0.00049
477.00,0.00049
478.00,0.00049
479.00,0.00049
480.00,0.00049
481.00,0.00037
482.00,0.00037
483.00,0.00024
484.00,0.00012
485.00,0.00000
486.00,0.00000
487.00,0.00000
488.00,0.00000
489.00,-0.00012
490.00,-0.00012
491.00,0.00000
492.00,0.00000
493.00,0.00000
494.00,0.00000
495.00,0.00000
496.00,0.00012
497.00,0.00012
498.00,0.00012
499.00,0.00037
500.00,0.00037
501.00,0.00049
502.00,0.00049
503.00,0.00073
504.00,0.00085
505.00,0.00085
506.00,0.00085
507.00,0.00085
508.00,0.00098
509.00,0.00098
510.00,0.00098
511.00,0.00110
512.00,0.00110
513.00,0.00122
514.00,0.00146
515.00,0.00171
516.00,0.00183
517.00,0.00208
518.00,0.00244
519.00,0.00281
520.00,0.00317
521.00,0.00354
522.00,0.00403
523.00,0.00439
524.00,0.00476
525.00,0.00500
526.00,0.00537
527.00,0.00549
528.00,0.00562
529.00,0.00586
530.00,0.00598
531.00,0.00598
532.00,0.00610
533.00,0.00623
534.00,0.00635
535.00,0.00659
536.00,0.00684
537.00,0.00696
538.00,0.00720
539.00,0.00732
540.00,0.00757
541.00,0.00769
542.00,0.00793
543.00,0.00806
544.00,0.00818
545.00,0.00818
546.00,0.00830
547.00,0.00830
548.00,0.00842
549.00,0.00867
550.00,0.00879
551.00,0.00891
552.00,0.00903
553.00,0.00916
554.00,0.00940
555.00,0.00964
556.00,0.00977
557.00,0.01013
558.00,0.01050
559.00,0.01086
560.00,0.01147
561.00,0.01221
562.00,0.01294
563.00,0.01367
564.00,0.01465
565.00,0.01575
566.00,0.01672
567.00,0.01782
568.00,0.01904
569.00,0.02039
570.00,0.02173
571.00,0.02319
572.00,0.02466
573.00,0.02612
574.00,0.02771
575.00,0.02930
576.00,0.03088
577.00,0.03247
578.00,0.03430
579.00,0.03613
580.00,0.03784
581.00,0.03967
582.00,0.04138
583.00,0.04309
584.00,0.04480
585.00,0.04639
586.00,0.04797
587.00,0.04944
588.00,0.05078
589.00,0.05212
590.00,0.05322
591.00,0.05420
592.00,0.05493
593.00,0.05566
594.00,0.05627
595.00,0.05664
596.00,0.05701
597.00,0.05737
598.00,0.05774
599.00,0.05823
600.00,0.05859
601.00,0.05908
602.00,0.05981
603.00,0.06055
604.00,0.06128
605.00,0.06226
606.00,0.06335
607.00,0.06458
608.00,0.06580
609.00,0.06726
610.00,0.06873
611.00,0.07019
612.00,0.07166
613.00,0.07324
614.00,0.07483
615.00,0.07642
616.00,0.07788
617.00,0.07935
618.00,0.08093
619.00,0.08252
620.00,0.08386
621.00,0.08521
622.00,0.08643
623.00,0.08752
624.00,0.08838
625.00,0.08899
626.00,0.08936
627.00,0.08960
628.00,0.08972
629.00,0.08960
630.00,0.08923
631.00,0.08875
632.00,0.08813
633.00,0.08752
634.00,0.08691
635.00,0.08618
636.00,0.08557
637.00,0.08496
638.00,0.08423
639.00,0.08362
640.00,0.08301
641.00,0.08252
642.00,0.08203
643.00,0.08130
644.00,0.08069
645.00,0.07996
646.00,0.07922
647.00,0.07849
648.00,0.07788
649.00,0.07715
650.00,0.07654
651.00,0.07605
652.00,0.07568
653.00,0.07532
654.00,0.07507
655.00,0.07507
656.00,0.07507
657.00,0.07507
658.00,0.07495
659.00,0.07483
660.00,0.07471
661.00,0.07458
662.00,0.07422
663.00,0.07385
664.00,0.07312
665.00,0.07202
666.00,0.07080
667.00,0.06921
668.00,0.06750
669.00,0.06555
670.00,0.06335
671.00,0.06079
672.00,0.05798
673.00,0.05518
674.00,0.05212
675.00,0.04895
676.00,0.04578
677.00,0.04272
678.00,0.03979
679.00,0.03674
680.00,0.03369
681.00,0.03088
682.00,0.02820
683.00,0.02588
684.00,0.02368
685.00,0.02148
686.00,0.01953
687.00,0.01770
688.00,0.01624
689.00,0.01477
690.00,0.01331
691.00,0.01196
692.00,0.01074
693.00,0.00964
694.00,0.00854
695.00,0.00769
696.00,0.00684
697.00,0.00598
698.00,0.00537
699.00,0.00476
700.00,0.00415
701.00,0.00354
702.00,0.00305
703.00,0.00256
704.00,0.00220
705.00,0.00195
706.00,0.00171
707.00,0.00134
708.00,0.00110
709.00,0.00085
710.00,0.00073
711.00,0.00049
712.00,0.00037
713.00,0.00012
714.00,0.00000
715.00,-0.00012
716.00,-0.00012
717.00,-0.00024
718.00,-0.00024
719.00,-0.00037
720.00,-0.00049
721.00,-0.00061
722.00,-0.00061
723.00,-0.00073
724.00,-0.00073
725.00,-0.00073
726.00,-0.00073
727.00,-0.00073
728.00,-0.00085
729.00,-0.00085
730.00,-0.00085
731.00,-0.00073
732.00,-0.00085
733.00,-0.00085
734.00,-0.00085
735.00,-0.00085
736.00,-0.00085
737.00,-0.00085
738.00,-0.00085
739.00,-0.00073
740.00,-0.00073
741.00,-0.00073
742.00,-0.00073
743.00,-0.00073
744.00,-0.00073
745.00,-0.00073
746.00,-0.00073
747.00,-0.00073
748.00,-0.00073
749.00,-0.00073
750.00,-0.00073
751.00,-0.00073
752.00,-0.00073
753.00,-0.00073
754.00,-0.00073
755.00,-0.00073
756.00,-0.00073
757.00,-0.00073
758.00,-0.00073
759.00,-0.00073
760.00,-0.00073
761.00,-0.00073
762.00,-0.00061
763.00,-0.00061
764.00,-0.00061
765.00,-0.00061
766.00,-0.00061
767.00,-0.00061
768.00,-0.00061
769.00,-0.00049
770.00,-0.00049
771.00,-0.00049
772.00,-0.00037
773.00,-0.00037
774.00,-0.00037
775.00,-0.00037
776.00,-0.00024
777.00,-0.00024
778.00,-0.00024
779.00,-0.00024
780.00,-0.00024
781.00,-0.00012
782.00,-0.00012
783.00,-0.00012
784.00,-0.00012
785.00,-0.00012
786.00,0.00000
787.00,0.00000
788.00,0.00000
789.00,0.00012
790.00,0.00024
791.00,0.00024
792.00,0.00024
793.00,0.00024
794.00,0.00037
795.00,0.00037
796.00,0.00037
797.00,0.00037
798.00,0.00037
799.00,0.00037
800.00,0.00049
801.00,0.00049
802.00,0.00049
803.00,0.00049
804.00,0.00049
805.00,0.00049
806.00,0.00061
807.00,0.00073
808.00,0.00073
809.00,0.00061
810.00,0.00061
811.00,0.00073
812.00,0.00085
813.00,0.00085
814.00,0.00085
815.00,0.00085
816.00,0.00085
817.00,0.00085
818.00,0.00098
819.00,0.00098
820.00,0.00098
821.00,0.00110
822.00,0.00110
823.00,0.00110
824.00,0.00110
825.00,0.00110
826.00,0.00122
827.00,0.00122
828.00,0.00134
829.00,0.00146
830.00,0.00159
831.00,0.00159
832.00,0.00171
833.00,0.00171
834.00,0.00171
835.00,0.00171
836.00,0.00183
837.00,0.00183
838.00,0.00183
839.00,0.00183
840.00,0.00183
841.00,0.00195
842.00,0.00195
843.00,0.00208
844.00,0.00232
845.00,0.00232
846.00,0.00232
847.00,0.00244
848.00,0.00256
849.00,0.00244
850.00,0.00256
851.00,0.00293
852.00,0.00269
853.00,0.00256
854.00,0.00293
855.00,0.00293
856.00,0.00293
857.00,0.00317
858.00,0.00317
859.00,0.00330
860.00,0.00342
861.00,0.00342
862.00,0.00342
863.00,0.00354
864.00,0.00366
865.00,0.00391
866.00,0.00391
867.00,0.00391
868.00,0.00403
869.00,0.00415
870.00,0.00427
871.00,0.00427
872.00,0.00439
873.00,0.00452
874.00,0.00464
875.00,0.00464
876.00,0.00476
877.00,0.00488
878.00,0.00488
879.00,0.00488
880.00,0.00513
881.00,0.00525
882.00,0.00525
883.00,0.00537
884.00,0.00537
885.00,0.00537
886.00,0.00537
887.00,0.00537
888.00,0.00549
889.00,0.00549
890.00,0.00562
891.00,0.00562
892.00,0.00562
893.00,0.00586
894.00,0.00598
895.00,0.00598
896.00,0.00598
897.00,0.00610
898.00,0.00610
899.00,0.00623
900.00,0.00623