File: docs/batch/data_set5.txt
"132013 - C:\Documents and Settings\User\My Documents\Homogeneous-catalysis\Allen, Lucy\lka1079.012.spc"
"Wavelength nm.","Abs."
200.00,0.27917
201.00,0.20483
202.00,0.11621
203.00,0.11597
204.00,0.12988
205.00,0.15515
206.00,0.15466
207.00,0.15430
208.00,0.17969
209.00,0.20227
210.00,0.16199
211.00,0.07288
212.00,0.09534
213.00,0.12036
214.00,0.07092
215.00,0.10999
216.00,0.13489
217.00,0.10437
218.00,0.13733
219.00,0.10071
220.00,0.08533
221.00,0.23792
222.00,0.46375
223.00,0.64294
224.00,0.71387
225.00,0.73877
226.00,0.74683
227.00,0.73157
228.00,0.71448
229.00,0.69568
230.00,0.67444
231.00,0.65027
232.00,0.62537
233.00,0.59900
234.00,0.57104
235.00,0.54199
236.00,0.51221
237.00,0.48364
238.00,0.45654
239.00,0.43091
240.00,0.40747
241.00,0.38672
242.00,0.36829
243.00,0.35132
244.00,0.33582
245.00,0.32068
246.00,0.30542
247.00,0.29065
248.00,0.27588
249.00,0.26086
250.00,0.24585
251.00,0.23071
252.00,0.21594
253.00,0.20203
254.00,0.18945
255.00,0.17761
256.00,0.16638
257.00,0.15637
258.00,0.14758
259.00,0.14014
260.00,0.13367
261.00,0.12781
262.00,0.12256
263.00,0.11792
264.00,0.11353
265.00,0.10962
266.00,0.10596
267.00,0.10229
268.00,0.09875
269.00,0.09509
270.00,0.09106
271.00,0.08679
272.00,0.08240
273.00,0.07788
274.00,0.07324
275.00,0.06873
276.00,0.06433
277.00,0.06018
278.00,0.05591
279.00,0.05164
280.00,0.04773
281.00,0.04370
282.00,0.04016
283.00,0.03674
284.00,0.03333
285.00,0.03027
286.00,0.02734
287.00,0.02454
288.00,0.02173
289.00,0.01904
290.00,0.01672
291.00,0.01440
292.00,0.01221
293.00,0.01001
294.00,0.00793
295.00,0.00610
296.00,0.00415
297.00,0.00220
298.00,0.00720
299.00,0.02844
300.00,0.04590
301.00,0.04712
302.00,0.04517
303.00,0.04358
304.00,0.04175
305.00,0.04004
306.00,0.03870
307.00,0.03723
308.00,0.03564
309.00,0.03394
310.00,0.03247
311.00,0.03101
312.00,0.02942
313.00,0.02808
314.00,0.02698
315.00,0.02563
316.00,0.02454
317.00,0.02332
318.00,0.02234
319.00,0.02161
320.00,0.02087
321.00,0.02026
322.00,0.01965
323.00,0.01904
324.00,0.01843
325.00,0.01794
326.00,0.01746
327.00,0.01697
328.00,0.01660
329.00,0.01624
330.00,0.01587
331.00,0.01538
332.00,0.01489
333.00,0.01440
334.00,0.01416
335.00,0.01367
336.00,0.01306
337.00,0.01245
338.00,0.01196
339.00,0.01147
340.00,0.01086
341.00,0.00977
342.00,0.00867
343.00,0.00818
344.00,0.00769
345.00,0.00708
346.00,0.00659
347.00,0.00598
348.00,0.00549
349.00,0.00500
350.00,0.00464
351.00,0.00415
352.00,0.00354
353.00,0.00305
354.00,0.00256
355.00,0.00220
356.00,0.00171
357.00,0.00134
358.00,0.00110
359.00,0.00073
360.00,0.00049
361.00,0.00024
362.00,0.00000
363.00,-0.00024
364.00,-0.00049
365.00,-0.00049
366.00,-0.00049
367.00,-0.00073
368.00,-0.00085
369.00,-0.00098
370.00,-0.00110
371.00,-0.00122
372.00,-0.00134
373.00,-0.00146
374.00,-0.00146
375.00,-0.00159
376.00,-0.00171
377.00,-0.00171
378.00,-0.00183
379.00,-0.00183
380.00,-0.00195
381.00,-0.00208
382.00,-0.00220
383.00,-0.00220
384.00,-0.00232
385.00,-0.00232
386.00,-0.00232
387.00,-0.00232
388.00,-0.00244
389.00,-0.00244
390.00,-0.00244
391.00,-0.00256
392.00,-0.00256
393.00,-0.00244
394.00,-0.00244
395.00,-0.00256
396.00,-0.00256
397.00,-0.00256
398.00,-0.00256
399.00,-0.00256
400.00,-0.00256
401.00,-0.00256
402.00,-0.00256
403.00,-0.00256
404.00,-0.00256
405.00,-0.00256
406.00,-0.00256
407.00,-0.00256
408.00,-0.00256
409.00,-0.00256
410.00,-0.00269
411.00,-0.00269
412.00,-0.00256
413.00,-0.00256
414.00,-0.00256
415.00,-0.00244
416.00,-0.00244
417.00,-0.00256
418.00,-0.00256
419.00,-0.00256
420.00,-0.00256
421.00,-0.00256
422.00,-0.00256
423.00,-0.00256
424.00,-0.00256
425.00,-0.00256
426.00,-0.00256
427.00,-0.00256
428.00,-0.00256
429.00,-0.00256
430.00,-0.00256
431.00,-0.00256
432.00,-0.00256
433.00,-0.00256
434.00,-0.00256
435.00,-0.00256
436.00,-0.00256
437.00,-0.00256
438.00,-0.00256
439.00,-0.00256
440.00,-0.00256
441.00,-0.00256
442.00,-0.00256
443.00,-0.00256
444.00,-0.00256
445.00,-0.00244
446.00,-0.00244
447.00,-0.00244
448.00,-0.00244
449.00,-0.00244
450.00,-0.00244
451.00,-0.00244
452.00,-0.00244
453.00,-0.00244
454.00,-0.00244
455.00,-0.00232
456.00,-0.00232
457.00,-0.00232
458.00,-0.00232
459.00,-0.00232
460.00,-0.00220
461.00,-0.00220
462.00,-0.00220
463.00,-0.00220
464.00,-0.00220
465.00,-0.00220
466.00,-0.00220
467.00,-0.00220
468.00,-0.00220
469.00,-0.00220
470.00,-0.00220
471.00,-0.00220
472.00,-0.00220
473.00,-0.00220
474.00,-0.00220
475.00,-0.00220
476.00,-0.00220
477.00,-0.00220
478.00,-0.00208
479.00,-0.00208
480.00,-0.00220
481.00,-0.00220
482.00,-0.00220
483.00,-0.00232
484.00,-0.00232
485.00,-0.00232
486.00,-0.00232
487.00,-0.00232
488.00,-0.00244
489.00,-0.00244
490.00,-0.00244
491.00,-0.00232
492.00,-0.00244
493.00,-0.00244
494.00,-0.00232
495.00,-0.00232
496.00,-0.00232
497.00,-0.00232
498.00,-0.00232
499.00,-0.00220
500.00,-0.00220
501.00,-0.00220
502.00,-0.00195
503.00,-0.00183
504.00,-0.00183
505.00,-0.00183
506.00,-0.00183
507.00,-0.00171
508.00,-0.00171
509.00,-0.00171
510.00,-0.00159
511.00,-0.00159
512.00,-0.00159
513.00,-0.00146
514.00,-0.00134
515.00,-0.00110
516.00,-0.00098
517.00,-0.00085
518.00,-0.00061
519.00,-0.00024
520.00,0.00000
521.00,0.00037
522.00,0.00073
523.00,0.00110
524.00,0.00122
525.00,0.00146
526.00,0.00171
527.00,0.00183
528.00,0.00195
529.00,0.00195
530.00,0.00208
531.00,0.00220
532.00,0.00232
533.00,0.00244
534.00,0.00244
535.00,0.00256
536.00,0.00269
537.00,0.00293
538.00,0.00317
539.00,0.00317
540.00,0.00330
541.00,0.00342
542.00,0.00354
543.00,0.00366
544.00,0.00378
545.00,0.00391
546.00,0.00391
547.00,0.00403
548.00,0.00403
549.00,0.00415
550.00,0.00415
551.00,0.00439
552.00,0.00452
553.00,0.00464
554.00,0.00476
555.00,0.00476
556.00,0.00488
557.00,0.00513
558.00,0.00549
559.00,0.00586
560.00,0.00623
561.00,0.00671
562.00,0.00732
563.00,0.00793
564.00,0.00867
565.00,0.00940
566.00,0.01025
567.00,0.01099
568.00,0.01196
569.00,0.01294
570.00,0.01404
571.00,0.01514
572.00,0.01624
573.00,0.01733
574.00,0.01855
575.00,0.01978
576.00,0.02112
577.00,0.02234
578.00,0.02368
579.00,0.02502
580.00,0.02637
581.00,0.02783
582.00,0.02917
583.00,0.03027
584.00,0.03149
585.00,0.03284
586.00,0.03394
587.00,0.03516
588.00,0.03625
589.00,0.03723
590.00,0.03809
591.00,0.03882
592.00,0.03931
593.00,0.03979
594.00,0.04028
595.00,0.04065
596.00,0.04089
597.00,0.04114
598.00,0.04138
599.00,0.04175
600.00,0.04211
601.00,0.04260
602.00,0.04309
603.00,0.04370
604.00,0.04431
605.00,0.04504
606.00,0.04590
607.00,0.04675
608.00,0.04773
609.00,0.04883
610.00,0.04993
611.00,0.05103
612.00,0.05212
613.00,0.05334
614.00,0.05444
615.00,0.05554
616.00,0.05664
617.00,0.05786
618.00,0.05908
619.00,0.06018
620.00,0.06128
621.00,0.06213
622.00,0.06311
623.00,0.06396
624.00,0.06445
625.00,0.06494
626.00,0.06531
627.00,0.06555
628.00,0.06555
629.00,0.06531
630.00,0.06519
631.00,0.06482
632.00,0.06445
633.00,0.06396
634.00,0.06335
635.00,0.06287
636.00,0.06238
637.00,0.06201
638.00,0.06140
639.00,0.06104
640.00,0.06055
641.00,0.06018
642.00,0.05969
643.00,0.05920
644.00,0.05872
645.00,0.05835
646.00,0.05774
647.00,0.05713
648.00,0.05664
649.00,0.05615
650.00,0.05554
651.00,0.05518
652.00,0.05481
653.00,0.05457
654.00,0.05444
655.00,0.05444
656.00,0.05432
657.00,0.05432
658.00,0.05432
659.00,0.05432
660.00,0.05420
661.00,0.05396
662.00,0.05371
663.00,0.05334
664.00,0.05273
665.00,0.05200
666.00,0.05103
667.00,0.04993
668.00,0.04858
669.00,0.04700
670.00,0.04529
671.00,0.04321
672.00,0.04114
673.00,0.03894
674.00,0.03674
675.00,0.03430
676.00,0.03186
677.00,0.02954
678.00,0.02722
679.00,0.02490
680.00,0.02246
681.00,0.02026
682.00,0.01819
683.00,0.01636
684.00,0.01477
685.00,0.01306
686.00,0.01160
687.00,0.01025
688.00,0.00891
689.00,0.00781
690.00,0.00671
691.00,0.00549
692.00,0.00452
693.00,0.00378
694.00,0.00305
695.00,0.00232
696.00,0.00159
697.00,0.00110
698.00,0.00061
699.00,0.00012
700.00,-0.00049
701.00,-0.00085
702.00,-0.00122
703.00,-0.00159
704.00,-0.00195
705.00,-0.00220
706.00,-0.00244
707.00,-0.00269
708.00,-0.00293
709.00,-0.00305
710.00,-0.00317
711.00,-0.00330
712.00,-0.00342
713.00,-0.00354
714.00,-0.00366
715.00,-0.00366
716.00,-0.00378
717.00,-0.00378
718.00,-0.00378
719.00,-0.00378
720.00,-0.00391
721.00,-0.00391
722.00,-0.00391
723.00,-0.00391
724.00,-0.00391
725.00,-0.00391
726.00,-0.00391
727.00,-0.00391
728.00,-0.00391
729.00,-0.00391
730.00,-0.00391
731.00,-0.00391
732.00,-0.00403
733.00,-0.00403
734.00,-0.00403
735.00,-0.00415
736.00,-0.00439
737.00,-0.00439
738.00,-0.00439
739.00,-0.00439
740.00,-0.00452
741.00,-0.00452
742.00,-0.00452
743.00,-0.00452
744.00,-0.00452
745.00,-0.00452
746.00,-0.00452
747.00,-0.00452
748.00,-0.00452
749.00,-0.00452
750.00,-0.00452
751.00,-0.00452
752.00,-0.00439
753.00,-0.00439
754.00,-0.00439
755.00,-0.00439
756.00,-0.00439
757.00,-0.00439
758.00,-0.00415
759.00,-0.00403
760.00,-0.00391
761.00,-0.00391
762.00,-0.00378
763.00,-0.00391
764.00,-0.00391
765.00,-0.00378
766.00,-0.00391
767.00,-0.00391
768.00,-0.00391
769.00,-0.00391
770.00,-0.00391
771.00,-0.00391
772.00,-0.00391
773.00,-0.00391
774.00,-0.00391
775.00,-0.00378
776.00,-0.00378
777.00,-0.00378
778.00,-0.00378
779.00,-0.00378
780.00,-0.00366
781.00,-0.00366
782.00,-0.00366
783.00,-0.00366
784.00,-0.00366
785.00,-0.00366
786.00,-0.00354
787.00,-0.00342
788.00,-0.00330
789.00,-0.00330
790.00,-0.00330
791.00,-0.00330
792.00,-0.00330
793.00,-0.00330
794.00,-0.00317
795.00,-0.00330
796.00,-0.00330
797.00,-0.00317
798.00,-0.00317
799.00,-0.00317
800.00,-0.00317
801.00,-0.00317
802.00,-0.00317
803.00,-0.00317
804.00,-0.00317
805.00,-0.00305
806.00,-0.00305
807.00,-0.00305
808.00,-0.00305
809.00,-0.00305
810.00,-0.00305
811.00,-0.00305
812.00,-0.00305
813.00,-0.00305
814.00,-0.00305
815.00,-0.00293
816.00,-0.00305
817.00,-0.00305
818.00,-0.00293
819.00,-0.00293
820.00,-0.00293
821.00,-0.00293
822.00,-0.00293
823.00,-0.00293
824.00,-0.00281
825.00,-0.00281
826.00,-0.00281
827.00,-0.00281
828.00,-0.00269
829.00,-0.00256
830.00,-0.00256
831.00,-0.00256
832.00,-0.00244
833.00,-0.00244
834.00,-0.00244
835.00,-0.00244
836.00,-0.00244
837.00,-0.00232
838.00,-0.00232
839.00,-0.00232
840.00,-0.00232
841.00,-0.00220
842.00,-0.00220
843.00,-0.00220
844.00,-0.00208
845.00,-0.00208
846.00,-0.00208
847.00,-0.00195
848.00,-0.00183
849.00,-0.00195
850.00,-0.00195
851.00,-0.00159
852.00,-0.00195
853.00,-0.00195
854.00,-0.00171
855.00,-0.00183
856.00,-0.00183
857.00,-0.00183
858.00,-0.00183
859.00,-0.00171
860.00,-0.00171
861.00,-0.00171
862.00,-0.00159
863.00,-0.00146
864.00,-0.00122
865.00,-0.00110
866.00,-0.00098
867.00,-0.00098
868.00,-0.00085
869.00,-0.00073
870.00,-0.00061
871.00,-0.00061
872.00,-0.00049
873.00,-0.00024
874.00,-0.00024
875.00,-0.00012
876.00,-0.00012
877.00,0.00000
878.00,0.00000
879.00,0.00000
880.00,0.00012
881.00,0.00024
882.00,0.00024
883.00,0.00037
884.00,0.00037
885.00,0.00037
886.00,0.00037
887.00,0.00037
888.00,0.00037
889.00,0.00049
890.00,0.00049
891.00,0.00049
892.00,0.00049
893.00,0.00073
894.00,0.00085
895.00,0.00085
896.00,0.00085
897.00,0.00073
898.00,0.00073
899.00,0.00085
900.00,0.00085